File: data/Maehlum_2022-09-06_EDS-SEM-APREO/GaAs_30kV.emsa
#FORMAT      : EMSA/MAS Spectral Data File
#VERSION     : 1.0
#TITLE       : GaAs_30kV
#DATE        : 06-SEP-2022
#TIME        : 17:02
#OWNER       :
#NPOINTS     : 2048.0
#NCOLUMNS    : 1.0
#XUNITS      : keV
#YUNITS      : counts
#DATATYPE    : XY
#XPERCHAN    : 0.01
#OFFSET      : -0.2
#SIGNALTYPE  : EDS
#CHOFFSET    : 20.0
#LIVETIME    : 120.0
#REALTIME    : 173.751
#BEAMKV      : 30.0
#MAGCAM      : 2936.0
#XTILTSTGE   : 0.0
#AZIMANGLE   : 0.0
#ELEVANGLE   : 35.0
#XPOSITION mm: -15.6696
#YPOSITION mm: -6.9174
#ZPOSITION mm: 9.9088
##OXINSTPT   : 5
##OXINSTSTROB: 36.82
##OXINSTNDET : 1
##OXINSTELEMS: 8,12,31,33,6
##OXINSTLABEL: 8, 0.522, O
##OXINSTLABEL: 12, 1.254, Mg
##OXINSTLABEL: 31, 9.252, Ga
##OXINSTLABEL: 31, 10.264, Ga
##OXINSTLABEL: 31, 1.098, Ga
##OXINSTLABEL: 31, 0.984, Ga
##OXINSTLABEL: 31, 0.957, Ga
##OXINSTLABEL: 33, 10.544, As
##OXINSTLABEL: 33, 11.726, As
##OXINSTLABEL: 33, 1.282, As
##OXINSTLABEL: 33, 1.155, As
##OXINSTLABEL: 33, 1.120, As
##OXINSTLABEL: 6, 0.277, C
#SPECTRUM    : Spectral Data Starts Here
-0.20000, 0.0
-0.18000, 0.0
-0.16000, 0.0
-0.14000, 0.0
-0.12000, 0.0
-0.10000, 0.0
-0.08000, 0.0
-0.06000, 3.0
-0.04000, 86.0
-0.02000, 1175.0
0.00000, 4901.0
0.02000, 8200.0
0.04000, 4487.0
0.06000, 720.0
0.08000, 243.0
0.10000, 250.0
0.12000, 231.0
0.14000, 240.0
0.16000, 248.0
0.18000, 264.0
0.20000, 281.0
0.22000, 366.0
0.24000, 821.0
0.26000, 1442.0
0.28000, 1317.0
0.30000, 651.0
0.32000, 289.0
0.34000, 248.0
0.36000, 288.0
0.38000, 308.0
0.40000, 337.0
0.42000, 366.0
0.44000, 433.0
0.46000, 498.0
0.48000, 550.0
0.50000, 638.0
0.52000, 733.0
0.54000, 658.0
0.56000, 628.0
0.58000, 643.0
0.60000, 706.0
0.62000, 743.0
0.64000, 811.0
0.66000, 858.0
0.68000, 924.0
0.70000, 1024.0
0.72000, 1063.0
0.74000, 1184.0
0.76000, 1207.0
0.78000, 1320.0
0.80000, 1410.0
0.82000, 1524.0
0.84000, 1645.0
0.86000, 1690.0
0.88000, 1867.0
0.90000, 2218.0
0.92000, 3208.0
0.94000, 4418.0
0.96000, 5663.0
0.98000, 5651.0
1.00000, 4762.0
1.02000, 4885.0
1.04000, 9300.0
1.06000, 24038.0
1.08000, 50964.0
1.10000, 71533.0
1.12000, 64896.0
1.14000, 38723.0
1.16000, 16487.0
1.18000, 5805.0
1.20000, 2834.0
1.22000, 3595.0
1.24000, 8360.0
1.26000, 17876.0
1.28000, 26943.0
1.30000, 28328.0
1.32000, 21424.0
1.34000, 12346.0
1.36000, 5538.0
1.38000, 2357.0
1.40000, 1182.0
1.42000, 810.0
1.44000, 625.0
1.46000, 559.0
1.48000, 539.0
1.50000, 574.0
1.52000, 540.0
1.54000, 555.0
1.56000, 526.0
1.58000, 521.0
1.60000, 534.0
1.62000, 564.0
1.64000, 552.0
1.66000, 604.0
1.68000, 677.0
1.70000, 842.0
1.72000, 1030.0
1.74000, 1197.0
1.76000, 1154.0
1.78000, 982.0
1.80000, 842.0
1.82000, 744.0
1.84000, 720.0
1.86000, 734.0
1.88000, 686.0
1.90000, 670.0
1.92000, 686.0
1.94000, 721.0
1.96000, 708.0
1.98000, 705.0
2.00000, 757.0
2.02000, 736.0
2.04000, 739.0
2.06000, 809.0
2.08000, 811.0
2.10000, 786.0
2.12000, 848.0
2.14000, 858.0
2.16000, 828.0
2.18000, 877.0
2.20000, 944.0
2.22000, 919.0
2.24000, 943.0
2.26000, 939.0
2.28000, 913.0
2.30000, 929.0
2.32000, 966.0
2.34000, 1001.0
2.36000, 973.0
2.38000, 1032.0
2.40000, 1002.0
2.42000, 980.0
2.44000, 1036.0
2.46000, 1007.0
2.48000, 974.0
2.50000, 981.0
2.52000, 997.0
2.54000, 1009.0
2.56000, 994.0
2.58000, 989.0
2.60000, 1057.0
2.62000, 1008.0
2.64000, 1044.0
2.66000, 1030.0
2.68000, 1073.0
2.70000, 1019.0
2.72000, 1041.0
2.74000, 1035.0
2.76000, 1039.0
2.78000, 1071.0
2.80000, 1126.0
2.82000, 1102.0
2.84000, 1081.0
2.86000, 1082.0
2.88000, 1114.0
2.90000, 1091.0
2.92000, 1069.0
2.94000, 1115.0
2.96000, 1122.0
2.98000, 1112.0
3.00000, 1126.0
3.02000, 1084.0
3.04000, 1133.0
3.06000, 1167.0
3.08000, 1127.0
3.10000, 1129.0
3.12000, 1184.0
3.14000, 1140.0
3.16000, 1159.0
3.18000, 1152.0
3.20000, 1198.0
3.22000, 1185.0
3.24000, 1126.0
3.26000, 1238.0
3.28000, 1134.0
3.30000, 1170.0
3.32000, 1153.0
3.34000, 1197.0
3.36000, 1204.0
3.38000, 1192.0
3.40000, 1195.0
3.42000, 1223.0
3.44000, 1153.0
3.46000, 1179.0
3.48000, 1168.0
3.50000, 1201.0
3.52000, 1183.0
3.54000, 1186.0
3.56000, 1208.0
3.58000, 1168.0
3.60000, 1164.0
3.62000, 1230.0
3.64000, 1208.0
3.66000, 1168.0
3.68000, 1243.0
3.70000, 1177.0
3.72000, 1210.0
3.74000, 1208.0
3.76000, 1200.0
3.78000, 1154.0
3.80000, 1201.0
3.82000, 1178.0
3.84000, 1155.0
3.86000, 1110.0
3.88000, 1167.0
3.90000, 1182.0
3.92000, 1211.0
3.94000, 1216.0
3.96000, 1149.0
3.98000, 1172.0
4.00000, 1202.0
4.02000, 1123.0
4.04000, 1210.0
4.06000, 1198.0
4.08000, 1221.0
4.10000, 1161.0
4.12000, 1199.0
4.14000, 1150.0
4.16000, 1164.0
4.18000, 1139.0
4.20000, 1184.0
4.22000, 1126.0
4.24000, 1170.0
4.26000, 1154.0
4.28000, 1170.0
4.30000, 1163.0
4.32000, 1175.0
4.34000, 1157.0
4.36000, 1108.0
4.38000, 1150.0
4.40000, 1156.0
4.42000, 1158.0
4.44000, 1152.0
4.46000, 1186.0
4.48000, 1109.0
4.50000, 1123.0
4.52000, 1101.0
4.54000, 1133.0
4.56000, 1099.0
4.58000, 1107.0
4.60000, 1136.0
4.62000, 1094.0
4.64000, 1124.0
4.66000, 1085.0
4.68000, 1167.0
4.70000, 1090.0
4.72000, 1123.0
4.74000, 1080.0
4.76000, 1127.0
4.78000, 1060.0
4.80000, 1090.0
4.82000, 1109.0
4.84000, 1075.0
4.86000, 1084.0
4.88000, 1086.0
4.90000, 1069.0
4.92000, 1105.0
4.94000, 1067.0
4.96000, 1057.0
4.98000, 1110.0
5.00000, 1056.0
5.02000, 1107.0
5.04000, 1031.0
5.06000, 1088.0
5.08000, 1051.0
5.10000, 1010.0
5.12000, 1020.0
5.14000, 983.0
5.16000, 1067.0
5.18000, 1055.0
5.20000, 1052.0
5.22000, 1018.0
5.24000, 1045.0
5.26000, 1028.0
5.28000, 1041.0
5.30000, 991.0
5.32000, 1002.0
5.34000, 1025.0
5.36000, 1017.0
5.38000, 1035.0
5.40000, 1019.0
5.42000, 1000.0
5.44000, 986.0
5.46000, 988.0
5.48000, 1023.0
5.50000, 1020.0
5.52000, 988.0
5.54000, 984.0
5.56000, 964.0
5.58000, 989.0
5.60000, 944.0
5.62000, 1003.0
5.64000, 969.0
5.66000, 939.0
5.68000, 949.0
5.70000, 985.0
5.72000, 983.0
5.74000, 969.0
5.76000, 994.0
5.78000, 935.0
5.80000, 955.0
5.82000, 926.0
5.84000, 941.0
5.86000, 990.0
5.88000, 924.0
5.90000, 954.0
5.92000, 940.0
5.94000, 922.0
5.96000, 898.0
5.98000, 912.0
6.00000, 917.0
6.02000, 915.0
6.04000, 909.0
6.06000, 933.0
6.08000, 930.0
6.10000, 923.0
6.12000, 927.0
6.14000, 901.0
6.16000, 911.0
6.18000, 861.0
6.20000, 866.0
6.22000, 881.0
6.24000, 839.0
6.26000, 893.0
6.28000, 874.0
6.30000, 874.0
6.32000, 904.0
6.34000, 895.0
6.36000, 858.0
6.38000, 857.0
6.40000, 902.0
6.42000, 849.0
6.44000, 858.0
6.46000, 860.0
6.48000, 873.0
6.50000, 861.0
6.52000, 868.0
6.54000, 811.0
6.56000, 827.0
6.58000, 846.0
6.60000, 842.0
6.62000, 854.0
6.64000, 858.0
6.66000, 822.0
6.68000, 819.0
6.70000, 807.0
6.72000, 831.0
6.74000, 802.0
6.76000, 808.0
6.78000, 825.0
6.80000, 824.0
6.82000, 790.0
6.84000, 801.0
6.86000, 809.0
6.88000, 822.0
6.90000, 790.0
6.92000, 779.0
6.94000, 803.0
6.96000, 759.0
6.98000, 753.0
7.00000, 740.0
7.02000, 774.0
7.04000, 800.0
7.06000, 751.0
7.08000, 766.0
7.10000, 727.0
7.12000, 745.0
7.14000, 757.0
7.16000, 781.0
7.18000, 767.0
7.20000, 776.0
7.22000, 742.0
7.24000, 761.0
7.26000, 737.0
7.28000, 728.0
7.30000, 741.0
7.32000, 739.0
7.34000, 737.0
7.36000, 737.0
7.38000, 802.0
7.40000, 753.0
7.42000, 737.0
7.44000, 769.0
7.46000, 770.0
7.48000, 748.0
7.50000, 727.0
7.52000, 776.0
7.54000, 721.0
7.56000, 750.0
7.58000, 735.0
7.60000, 727.0
7.62000, 732.0
7.64000, 683.0
7.66000, 712.0
7.68000, 717.0
7.70000, 680.0
7.72000, 685.0
7.74000, 701.0
7.76000, 661.0
7.78000, 712.0
7.80000, 697.0
7.82000, 673.0
7.84000, 687.0
7.86000, 687.0
7.88000, 713.0
7.90000, 672.0
7.92000, 698.0
7.94000, 655.0
7.96000, 687.0
7.98000, 672.0
8.00000, 662.0
8.02000, 698.0
8.04000, 666.0
8.06000, 657.0
8.08000, 666.0
8.10000, 651.0
8.12000, 674.0
8.14000, 636.0
8.16000, 643.0
8.18000, 655.0
8.20000, 662.0
8.22000, 646.0
8.24000, 621.0
8.26000, 652.0
8.28000, 627.0
8.30000, 664.0
8.32000, 622.0
8.34000, 643.0
8.36000, 674.0
8.38000, 649.0
8.40000, 629.0
8.42000, 635.0
8.44000, 631.0
8.46000, 642.0
8.48000, 609.0
8.50000, 603.0
8.52000, 668.0
8.54000, 663.0
8.56000, 646.0
8.58000, 617.0
8.60000, 602.0
8.62000, 632.0
8.64000, 635.0
8.66000, 614.0
8.68000, 647.0
8.70000, 629.0
8.72000, 621.0
8.74000, 622.0
8.76000, 638.0
8.78000, 636.0
8.80000, 640.0
8.82000, 614.0
8.84000, 602.0
8.86000, 638.0
8.88000, 665.0
8.90000, 641.0
8.92000, 651.0
8.94000, 671.0
8.96000, 626.0
8.98000, 674.0
9.00000, 694.0
9.02000, 814.0
9.04000, 997.0
9.06000, 1437.0
9.08000, 2189.0
9.10000, 3604.0
9.12000, 6024.0
9.14000, 9350.0
9.16000, 13389.0
9.18000, 17961.0
9.20000, 22003.0
9.22000, 24818.0
9.24000, 25760.0
9.26000, 24325.0
9.28000, 21216.0
9.30000, 16832.0
9.32000, 12286.0
9.34000, 8236.0
9.36000, 5217.0
9.38000, 3113.0
9.40000, 1853.0
9.42000, 1153.0
9.44000, 843.0
9.46000, 651.0
9.48000, 601.0
9.50000, 561.0
9.52000, 542.0
9.54000, 562.0
9.56000, 532.0
9.58000, 547.0
9.60000, 552.0
9.62000, 521.0
9.64000, 544.0
9.66000, 538.0
9.68000, 536.0
9.70000, 557.0
9.72000, 532.0
9.74000, 524.0
9.76000, 526.0
9.78000, 521.0
9.80000, 522.0
9.82000, 519.0
9.84000, 553.0
9.86000, 534.0
9.88000, 554.0
9.90000, 550.0
9.92000, 577.0
9.94000, 546.0
9.96000, 609.0
9.98000, 554.0
10.00000, 549.0
10.02000, 617.0
10.04000, 637.0
10.06000, 669.0
10.08000, 703.0
10.10000, 898.0
10.12000, 1087.0
10.14000, 1458.0
10.16000, 1874.0
10.18000, 2429.0
10.20000, 3051.0
10.22000, 3607.0
10.24000, 3980.0
10.26000, 3995.0
10.28000, 3766.0
10.30000, 3520.0
10.32000, 3070.0
10.34000, 2857.0
10.36000, 2789.0
10.38000, 3215.0
10.40000, 4222.0
10.42000, 5638.0
10.44000, 7755.0
10.46000, 10019.0
10.48000, 12121.0
10.50000, 13871.0
10.52000, 14467.0
10.54000, 14136.0
10.56000, 12885.0
10.58000, 10634.0
10.60000, 8395.0
10.62000, 6071.0
10.64000, 4093.0
10.66000, 2676.0
10.68000, 1705.0
10.70000, 1080.0
10.72000, 725.0
10.74000, 556.0
10.76000, 481.0
10.78000, 431.0
10.80000, 429.0
10.82000, 397.0
10.84000, 389.0
10.86000, 386.0
10.88000, 405.0
10.90000, 410.0
10.92000, 406.0
10.94000, 406.0
10.96000, 411.0
10.98000, 407.0
11.00000, 374.0
11.02000, 408.0
11.04000, 394.0
11.06000, 408.0
11.08000, 361.0
11.10000, 383.0
11.12000, 389.0
11.14000, 386.0
11.16000, 389.0
11.18000, 376.0
11.20000, 395.0
11.22000, 393.0
11.24000, 358.0
11.26000, 389.0
11.28000, 406.0
11.30000, 393.0
11.32000, 389.0
11.34000, 399.0
11.36000, 400.0
11.38000, 395.0
11.40000, 431.0
11.42000, 420.0
11.44000, 425.0
11.46000, 414.0
11.48000, 393.0
11.50000, 445.0
11.52000, 469.0
11.54000, 550.0
11.56000, 667.0
11.58000, 848.0
11.60000, 1051.0
11.62000, 1255.0
11.64000, 1630.0
11.66000, 1967.0
11.68000, 2200.0
11.70000, 2323.0
11.72000, 2336.0
11.74000, 2279.0
11.76000, 2036.0
11.78000, 1741.0
11.80000, 1410.0
11.82000, 1128.0
11.84000, 854.0
11.86000, 716.0
11.88000, 579.0
11.90000, 491.0
11.92000, 412.0
11.94000, 390.0
11.96000, 362.0
11.98000, 319.0
12.00000, 327.0
12.02000, 307.0
12.04000, 300.0
12.06000, 278.0
12.08000, 290.0
12.10000, 321.0
12.12000, 289.0
12.14000, 306.0
12.16000, 307.0
12.18000, 307.0
12.20000, 301.0
12.22000, 295.0
12.24000, 293.0
12.26000, 293.0
12.28000, 283.0
12.30000, 262.0
12.32000, 294.0
12.34000, 284.0
12.36000, 296.0
12.38000, 276.0
12.40000, 299.0
12.42000, 296.0
12.44000, 286.0
12.46000, 284.0
12.48000, 291.0
12.50000, 275.0
12.52000, 277.0
12.54000, 275.0
12.56000, 266.0
12.58000, 287.0
12.60000, 267.0
12.62000, 277.0
12.64000, 282.0
12.66000, 282.0
12.68000, 280.0
12.70000, 283.0
12.72000, 274.0
12.74000, 266.0
12.76000, 289.0
12.78000, 277.0
12.80000, 273.0
12.82000, 273.0
12.84000, 282.0
12.86000, 267.0
12.88000, 261.0
12.90000, 297.0
12.92000, 263.0
12.94000, 259.0
12.96000, 269.0
12.98000, 241.0
13.00000, 262.0
13.02000, 264.0
13.04000, 258.0
13.06000, 276.0
13.08000, 251.0
13.10000, 232.0
13.12000, 261.0
13.14000, 253.0
13.16000, 266.0
13.18000, 245.0
13.20000, 245.0
13.22000, 256.0
13.24000, 262.0
13.26000, 275.0
13.28000, 243.0
13.30000, 258.0
13.32000, 269.0
13.34000, 243.0
13.36000, 253.0
13.38000, 229.0
13.40000, 268.0
13.42000, 253.0
13.44000, 235.0
13.46000, 226.0
13.48000, 237.0
13.50000, 241.0
13.52000, 226.0
13.54000, 227.0
13.56000, 231.0
13.58000, 239.0
13.60000, 235.0
13.62000, 244.0
13.64000, 223.0
13.66000, 218.0
13.68000, 225.0
13.70000, 235.0
13.72000, 232.0
13.74000, 244.0
13.76000, 237.0
13.78000, 212.0
13.80000, 247.0
13.82000, 219.0
13.84000, 228.0
13.86000, 213.0
13.88000, 229.0
13.90000, 230.0
13.92000, 222.0
13.94000, 218.0
13.96000, 219.0
13.98000, 229.0
14.00000, 201.0
14.02000, 235.0
14.04000, 207.0
14.06000, 222.0
14.08000, 214.0
14.10000, 204.0
14.12000, 221.0
14.14000, 222.0
14.16000, 213.0
14.18000, 211.0
14.20000, 198.0
14.22000, 212.0
14.24000, 215.0
14.26000, 214.0
14.28000, 213.0
14.30000, 213.0
14.32000, 203.0
14.34000, 190.0
14.36000, 194.0
14.38000, 213.0
14.40000, 195.0
14.42000, 202.0
14.44000, 189.0
14.46000, 183.0
14.48000, 200.0
14.50000, 197.0
14.52000, 180.0
14.54000, 215.0
14.56000, 194.0
14.58000, 198.0
14.60000, 181.0
14.62000, 197.0
14.64000, 203.0
14.66000, 182.0
14.68000, 206.0
14.70000, 179.0
14.72000, 165.0
14.74000, 202.0
14.76000, 185.0
14.78000, 209.0
14.80000, 182.0
14.82000, 189.0
14.84000, 200.0
14.86000, 202.0
14.88000, 169.0
14.90000, 180.0
14.92000, 179.0
14.94000, 202.0
14.96000, 181.0
14.98000, 170.0
15.00000, 196.0
15.02000, 167.0
15.04000, 178.0
15.06000, 174.0
15.08000, 170.0
15.10000, 170.0
15.12000, 173.0
15.14000, 169.0
15.16000, 191.0
15.18000, 164.0
15.20000, 183.0
15.22000, 163.0
15.24000, 181.0
15.26000, 179.0
15.28000, 184.0
15.30000, 197.0
15.32000, 159.0
15.34000, 181.0
15.36000, 147.0
15.38000, 136.0
15.40000, 169.0
15.42000, 154.0
15.44000, 174.0
15.46000, 177.0
15.48000, 178.0
15.50000, 160.0
15.52000, 164.0
15.54000, 140.0
15.56000, 170.0
15.58000, 160.0
15.60000, 172.0
15.62000, 150.0
15.64000, 161.0
15.66000, 150.0
15.68000, 155.0
15.70000, 160.0
15.72000, 164.0
15.74000, 156.0
15.76000, 149.0
15.78000, 156.0
15.80000, 150.0
15.82000, 155.0
15.84000, 150.0
15.86000, 159.0
15.88000, 155.0
15.90000, 142.0
15.92000, 149.0
15.94000, 155.0
15.96000, 155.0
15.98000, 148.0
16.00000, 145.0
16.02000, 158.0
16.04000, 140.0
16.06000, 137.0
16.08000, 145.0
16.10000, 157.0
16.12000, 149.0
16.14000, 140.0
16.16000, 140.0
16.18000, 152.0
16.20000, 122.0
16.22000, 151.0
16.24000, 145.0
16.26000, 146.0
16.28000, 135.0
16.30000, 133.0
16.32000, 142.0
16.34000, 125.0
16.36000, 134.0
16.38000, 121.0
16.40000, 131.0
16.42000, 128.0
16.44000, 134.0
16.46000, 120.0
16.48000, 140.0
16.50000, 123.0
16.52000, 130.0
16.54000, 134.0
16.56000, 126.0
16.58000, 128.0
16.60000, 134.0
16.62000, 145.0
16.64000, 126.0
16.66000, 125.0
16.68000, 132.0
16.70000, 121.0
16.72000, 113.0
16.74000, 107.0
16.76000, 136.0
16.78000, 126.0
16.80000, 111.0
16.82000, 131.0
16.84000, 123.0
16.86000, 129.0
16.88000, 102.0
16.90000, 118.0
16.92000, 143.0
16.94000, 114.0
16.96000, 116.0
16.98000, 124.0
17.00000, 114.0
17.02000, 104.0
17.04000, 114.0
17.06000, 106.0
17.08000, 114.0
17.10000, 108.0
17.12000, 106.0
17.14000, 122.0
17.16000, 123.0
17.18000, 110.0
17.20000, 104.0
17.22000, 110.0
17.24000, 124.0
17.26000, 102.0
17.28000, 105.0
17.30000, 101.0
17.32000, 107.0
17.34000, 124.0
17.36000, 115.0
17.38000, 115.0
17.40000, 104.0
17.42000, 103.0
17.44000, 109.0
17.46000, 101.0
17.48000, 111.0
17.50000, 95.0
17.52000, 116.0
17.54000, 107.0
17.56000, 107.0
17.58000, 101.0
17.60000, 94.0
17.62000, 103.0
17.64000, 94.0
17.66000, 101.0
17.68000, 79.0
17.70000, 109.0
17.72000, 84.0
17.74000, 102.0
17.76000, 103.0
17.78000, 84.0
17.80000, 89.0
17.82000, 95.0
17.84000, 96.0
17.86000, 100.0
17.88000, 105.0
17.90000, 93.0
17.92000, 94.0
17.94000, 93.0
17.96000, 99.0
17.98000, 85.0
18.00000, 95.0
18.02000, 91.0
18.04000, 93.0
18.06000, 90.0
18.08000, 96.0
18.10000, 99.0
18.12000, 92.0
18.14000, 84.0
18.16000, 90.0
18.18000, 85.0
18.20000, 83.0
18.22000, 85.0
18.24000, 91.0
18.26000, 95.0
18.28000, 87.0
18.30000, 92.0
18.32000, 88.0
18.34000, 91.0
18.36000, 107.0
18.38000, 112.0
18.40000, 107.0
18.42000, 111.0
18.44000, 132.0
18.46000, 122.0
18.48000, 115.0
18.50000, 113.0
18.52000, 117.0
18.54000, 99.0
18.56000, 100.0
18.58000, 101.0
18.60000, 102.0
18.62000, 84.0
18.64000, 99.0
18.66000, 92.0
18.68000, 94.0
18.70000, 79.0
18.72000, 82.0
18.74000, 77.0
18.76000, 70.0
18.78000, 74.0
18.80000, 83.0
18.82000, 74.0
18.84000, 74.0
18.86000, 80.0
18.88000, 79.0
18.90000, 79.0
18.92000, 73.0
18.94000, 76.0
18.96000, 78.0
18.98000, 68.0
19.00000, 67.0
19.02000, 70.0
19.04000, 60.0
19.06000, 61.0
19.08000, 66.0
19.10000, 61.0
19.12000, 76.0
19.14000, 73.0
19.16000, 61.0
19.18000, 59.0
19.20000, 74.0
19.22000, 75.0
19.24000, 73.0
19.26000, 70.0
19.28000, 65.0
19.30000, 73.0
19.32000, 72.0
19.34000, 65.0
19.36000, 72.0
19.38000, 58.0
19.40000, 69.0
19.42000, 68.0
19.44000, 65.0
19.46000, 62.0
19.48000, 78.0
19.50000, 76.0
19.52000, 69.0
19.54000, 70.0
19.56000, 75.0
19.58000, 78.0
19.60000, 76.0
19.62000, 78.0
19.64000, 78.0
19.66000, 90.0
19.68000, 98.0
19.70000, 108.0
19.72000, 105.0
19.74000, 96.0
19.76000, 112.0
19.78000, 100.0
19.80000, 94.0
19.82000, 90.0
19.84000, 92.0
19.86000, 79.0
19.88000, 67.0
19.90000, 84.0
19.92000, 63.0
19.94000, 62.0
19.96000, 69.0
19.98000, 62.0
20.00000, 52.0
20.02000, 45.0
20.04000, 56.0
20.06000, 59.0
20.08000, 52.0
20.10000, 63.0
20.12000, 48.0
20.14000, 52.0
20.16000, 53.0
20.18000, 49.0
20.20000, 54.0
20.22000, 48.0
20.24000, 54.0
20.26000, 61.0
20.27000, 52.0
#ENDOFDATA   :