File: data/Maehlum_2022-09-06_EDS-SEM-APREO/GaAs_15kV.emsa
#FORMAT      : EMSA/MAS Spectral Data File
#VERSION     : 1.0
#TITLE       : GaAs_15kV
#DATE        : 06-SEP-2022
#TIME        : 16:57
#OWNER       :
#NPOINTS     : 2048.0
#NCOLUMNS    : 1.0
#XUNITS      : keV
#YUNITS      : counts
#DATATYPE    : XY
#XPERCHAN    : 0.01
#OFFSET      : -0.2
#SIGNALTYPE  : EDS
#CHOFFSET    : 20.0
#LIVETIME    : 46.4295
#REALTIME    : 113.416
#BEAMKV      : 15.05
#MAGCAM      : 2936.0
#XTILTSTGE   : 0.0
#AZIMANGLE   : 0.0
#ELEVANGLE   : 35.0
#XPOSITION mm: -15.6696
#YPOSITION mm: -6.9174
#ZPOSITION mm: 9.9088
##OXINSTPT   : 5
##OXINSTSTROB: 36.94
##OXINSTNDET : 1
##OXINSTELEMS: 25,50,8,12
##OXINSTLABEL: 25, 5.899, Mn
##OXINSTLABEL: 25, 6.490, Mn
##OXINSTLABEL: 25, 0.636, Mn
##OXINSTLABEL: 25, 0.556, Mn
##OXINSTLABEL: 50, 3.444, Sn
##OXINSTLABEL: 50, 3.666, Sn
##OXINSTLABEL: 50, 3.905, Sn
##OXINSTLABEL: 50, 3.272, Sn
##OXINSTLABEL: 50, 4.131, Sn
##OXINSTLABEL: 50, 4.377, Sn
##OXINSTLABEL: 50, 3.045, Sn
##OXINSTLABEL: 50, 0.397, Sn
##OXINSTLABEL: 8, 0.522, O
##OXINSTLABEL: 12, 1.254, Mg
#SPECTRUM    : Spectral Data Starts Here
-0.20000, 0.0
-0.18000, 0.0
-0.16000, 0.0
-0.14000, 0.0
-0.12000, 0.0
-0.10000, 0.0
-0.08000, 0.0
-0.06000, 1.0
-0.04000, 33.0
-0.02000, 423.0
0.00000, 1774.0
0.02000, 2565.0
0.04000, 1241.0
0.06000, 331.0
0.08000, 330.0
0.10000, 398.0
0.12000, 407.0
0.14000, 436.0
0.16000, 472.0
0.18000, 482.0
0.20000, 550.0
0.22000, 768.0
0.24000, 1390.0
0.26000, 2332.0
0.28000, 2214.0
0.30000, 1136.0
0.32000, 603.0
0.34000, 586.0
0.36000, 675.0
0.38000, 737.0
0.40000, 913.0
0.42000, 1019.0
0.44000, 1206.0
0.46000, 1294.0
0.48000, 1545.0
0.50000, 1791.0
0.52000, 1833.0
0.54000, 1655.0
0.56000, 1622.0
0.58000, 1687.0
0.60000, 1859.0
0.62000, 1979.0
0.64000, 2116.0
0.66000, 2198.0
0.68000, 2430.0
0.70000, 2536.0
0.72000, 2561.0
0.74000, 2786.0
0.76000, 2935.0
0.78000, 2984.0
0.80000, 3090.0
0.82000, 3305.0
0.84000, 3396.0
0.86000, 3554.0
0.88000, 3827.0
0.90000, 4284.0
0.92000, 5766.0
0.94000, 8151.0
0.96000, 10017.0
0.98000, 9903.0
1.00000, 8329.0
1.02000, 8071.0
1.04000, 14552.0
1.06000, 36864.0
1.08000, 77807.0
1.10000, 110697.0
1.12000, 102981.0
1.14000, 65324.0
1.16000, 29631.0
1.18000, 11436.0
1.20000, 6197.0
1.22000, 8045.0
1.24000, 18130.0
1.26000, 38765.0
1.28000, 58557.0
1.30000, 61367.0
1.32000, 46521.0
1.34000, 26955.0
1.36000, 12504.0
1.38000, 5461.0
1.40000, 2984.0
1.42000, 2107.0
1.44000, 1578.0
1.46000, 1399.0
1.48000, 1404.0
1.50000, 1322.0
1.52000, 1380.0
1.54000, 1379.0
1.56000, 1333.0
1.58000, 1327.0
1.60000, 1321.0
1.62000, 1335.0
1.64000, 1363.0
1.66000, 1332.0
1.68000, 1430.0
1.70000, 1543.0
1.72000, 1703.0
1.74000, 1818.0
1.76000, 1801.0
1.78000, 1725.0
1.80000, 1653.0
1.82000, 1517.0
1.84000, 1558.0
1.86000, 1507.0
1.88000, 1497.0
1.90000, 1436.0
1.92000, 1501.0
1.94000, 1511.0
1.96000, 1476.0
1.98000, 1536.0
2.00000, 1543.0
2.02000, 1515.0
2.04000, 1619.0
2.06000, 1629.0
2.08000, 1646.0
2.10000, 1671.0
2.12000, 1678.0
2.14000, 1700.0
2.16000, 1859.0
2.18000, 2101.0
2.20000, 2219.0
2.22000, 2202.0
2.24000, 2198.0
2.26000, 2060.0
2.28000, 1806.0
2.30000, 1797.0
2.32000, 1729.0
2.34000, 1920.0
2.36000, 2046.0
2.38000, 2213.0
2.40000, 2341.0
2.42000, 2160.0
2.44000, 2024.0
2.46000, 1884.0
2.48000, 1752.0
2.50000, 1667.0
2.52000, 1646.0
2.54000, 1722.0
2.56000, 1738.0
2.58000, 1736.0
2.60000, 1772.0
2.62000, 1728.0
2.64000, 1677.0
2.66000, 1614.0
2.68000, 1517.0
2.70000, 1564.0
2.72000, 1558.0
2.74000, 1517.0
2.76000, 1540.0
2.78000, 1586.0
2.80000, 1499.0
2.82000, 1557.0
2.84000, 1490.0
2.86000, 1521.0
2.88000, 1583.0
2.90000, 1526.0
2.92000, 1449.0
2.94000, 1472.0
2.96000, 1522.0
2.98000, 1470.0
3.00000, 1497.0
3.02000, 1468.0
3.04000, 1506.0
3.06000, 1416.0
3.08000, 1444.0
3.10000, 1417.0
3.12000, 1408.0
3.14000, 1467.0
3.16000, 1460.0
3.18000, 1474.0
3.20000, 1454.0
3.22000, 1421.0
3.24000, 1419.0
3.26000, 1430.0
3.28000, 1453.0
3.30000, 1391.0
3.32000, 1366.0
3.34000, 1368.0
3.36000, 1372.0
3.38000, 1371.0
3.40000, 1388.0
3.42000, 1332.0
3.44000, 1342.0
3.46000, 1316.0
3.48000, 1330.0
3.50000, 1390.0
3.52000, 1383.0
3.54000, 1298.0
3.56000, 1342.0
3.58000, 1335.0
3.60000, 1301.0
3.62000, 1267.0
3.64000, 1274.0
3.66000, 1236.0
3.68000, 1314.0
3.70000, 1267.0
3.72000, 1269.0
3.74000, 1231.0
3.76000, 1234.0
3.78000, 1256.0
3.80000, 1236.0
3.82000, 1198.0
3.84000, 1228.0
3.86000, 1218.0
3.88000, 1199.0
3.90000, 1252.0
3.92000, 1246.0
3.94000, 1203.0
3.96000, 1235.0
3.98000, 1203.0
4.00000, 1194.0
4.02000, 1185.0
4.04000, 1159.0
4.06000, 1179.0
4.08000, 1184.0
4.10000, 1193.0
4.12000, 1154.0
4.14000, 1129.0
4.16000, 1103.0
4.18000, 1156.0
4.20000, 1134.0
4.22000, 1125.0
4.24000, 1122.0
4.26000, 1073.0
4.28000, 1071.0
4.30000, 1119.0
4.32000, 1083.0
4.34000, 1092.0
4.36000, 1113.0
4.38000, 1016.0
4.40000, 1026.0
4.42000, 1030.0
4.44000, 1027.0
4.46000, 1045.0
4.48000, 1039.0
4.50000, 1037.0
4.52000, 1059.0
4.54000, 965.0
4.56000, 1040.0
4.58000, 1009.0
4.60000, 1038.0
4.62000, 951.0
4.64000, 1025.0
4.66000, 961.0
4.68000, 1003.0
4.70000, 944.0
4.72000, 1000.0
4.74000, 950.0
4.76000, 1002.0
4.78000, 984.0
4.80000, 975.0
4.82000, 926.0
4.84000, 971.0
4.86000, 901.0
4.88000, 952.0
4.90000, 880.0
4.92000, 966.0
4.94000, 895.0
4.96000, 875.0
4.98000, 883.0
5.00000, 866.0
5.02000, 885.0
5.04000, 880.0
5.06000, 902.0
5.08000, 858.0
5.10000, 837.0
5.12000, 844.0
5.14000, 879.0
5.16000, 875.0
5.18000, 885.0
5.20000, 854.0
5.22000, 811.0
5.24000, 898.0
5.26000, 830.0
5.28000, 829.0
5.30000, 828.0
5.32000, 817.0
5.34000, 807.0
5.36000, 811.0
5.38000, 772.0
5.40000, 825.0
5.42000, 805.0
5.44000, 813.0
5.46000, 758.0
5.48000, 781.0
5.50000, 758.0
5.52000, 803.0
5.54000, 751.0
5.56000, 759.0
5.58000, 776.0
5.60000, 753.0
5.62000, 753.0
5.64000, 767.0
5.66000, 774.0
5.68000, 738.0
5.70000, 757.0
5.72000, 743.0
5.74000, 741.0
5.76000, 734.0
5.78000, 713.0
5.80000, 746.0
5.82000, 706.0
5.84000, 714.0
5.86000, 712.0
5.88000, 707.0
5.90000, 742.0
5.92000, 706.0
5.94000, 693.0
5.96000, 694.0
5.98000, 699.0
6.00000, 702.0
6.02000, 695.0
6.04000, 675.0
6.06000, 661.0
6.08000, 670.0
6.10000, 701.0
6.12000, 649.0
6.14000, 684.0
6.16000, 701.0
6.18000, 656.0
6.20000, 682.0
6.22000, 667.0
6.24000, 651.0
6.26000, 653.0
6.28000, 614.0
6.30000, 622.0
6.32000, 613.0
6.34000, 616.0
6.36000, 636.0
6.38000, 618.0
6.40000, 618.0
6.42000, 617.0
6.44000, 626.0
6.46000, 603.0
6.48000, 586.0
6.50000, 563.0
6.52000, 607.0
6.54000, 594.0
6.56000, 598.0
6.58000, 589.0
6.60000, 601.0
6.62000, 607.0
6.64000, 605.0
6.66000, 569.0
6.68000, 573.0
6.70000, 574.0
6.72000, 571.0
6.74000, 560.0
6.76000, 561.0
6.78000, 590.0
6.80000, 561.0
6.82000, 563.0
6.84000, 531.0
6.86000, 535.0
6.88000, 549.0
6.90000, 529.0
6.92000, 542.0
6.94000, 539.0
6.96000, 538.0
6.98000, 548.0
7.00000, 545.0
7.02000, 515.0
7.04000, 536.0
7.06000, 540.0
7.08000, 516.0
7.10000, 495.0
7.12000, 518.0
7.14000, 529.0
7.16000, 529.0
7.18000, 514.0
7.20000, 492.0
7.22000, 501.0
7.24000, 482.0
7.26000, 492.0
7.28000, 539.0
7.30000, 493.0
7.32000, 491.0
7.34000, 509.0
7.36000, 460.0
7.38000, 480.0
7.40000, 483.0
7.42000, 502.0
7.44000, 479.0
7.46000, 474.0
7.48000, 469.0
7.50000, 464.0
7.52000, 472.0
7.54000, 467.0
7.56000, 472.0
7.58000, 437.0
7.60000, 451.0
7.62000, 482.0
7.64000, 429.0
7.66000, 467.0
7.68000, 452.0
7.70000, 464.0
7.72000, 440.0
7.74000, 424.0
7.76000, 447.0
7.78000, 408.0
7.80000, 437.0
7.82000, 433.0
7.84000, 413.0
7.86000, 473.0
7.88000, 436.0
7.90000, 407.0
7.92000, 388.0
7.94000, 424.0
7.96000, 424.0
7.98000, 408.0
8.00000, 395.0
8.02000, 412.0
8.04000, 403.0
8.06000, 390.0
8.08000, 378.0
8.10000, 399.0
8.12000, 411.0
8.14000, 383.0
8.16000, 391.0
8.18000, 413.0
8.20000, 401.0
8.22000, 396.0
8.24000, 352.0
8.26000, 374.0
8.28000, 382.0
8.30000, 376.0
8.32000, 361.0
8.34000, 371.0
8.36000, 381.0
8.38000, 354.0
8.40000, 357.0
8.42000, 366.0
8.44000, 373.0
8.46000, 368.0
8.48000, 351.0
8.50000, 365.0
8.52000, 375.0
8.54000, 374.0
8.56000, 340.0
8.58000, 371.0
8.60000, 370.0
8.62000, 355.0
8.64000, 362.0
8.66000, 351.0
8.68000, 368.0
8.70000, 323.0
8.72000, 343.0
8.74000, 340.0
8.76000, 346.0
8.78000, 328.0
8.80000, 340.0
8.82000, 308.0
8.84000, 322.0
8.86000, 356.0
8.88000, 308.0
8.90000, 351.0
8.92000, 339.0
8.94000, 344.0
8.96000, 332.0
8.98000, 344.0
9.00000, 342.0
9.02000, 364.0
9.04000, 396.0
9.06000, 467.0
9.08000, 568.0
9.10000, 773.0
9.12000, 1189.0
9.14000, 1768.0
9.16000, 2432.0
9.18000, 3106.0
9.20000, 3852.0
9.22000, 4304.0
9.24000, 4492.0
9.26000, 4206.0
9.28000, 3640.0
9.30000, 2978.0
9.32000, 2213.0
9.34000, 1618.0
9.36000, 1040.0
9.38000, 739.0
9.40000, 493.0
9.42000, 364.0
9.44000, 352.0
9.46000, 326.0
9.48000, 301.0
9.50000, 288.0
9.52000, 283.0
9.54000, 273.0
9.56000, 286.0
9.58000, 273.0
9.60000, 257.0
9.62000, 274.0
9.64000, 260.0
9.66000, 283.0
9.68000, 288.0
9.70000, 275.0
9.72000, 290.0
9.74000, 271.0
9.76000, 267.0
9.78000, 245.0
9.80000, 249.0
9.82000, 259.0
9.84000, 291.0
9.86000, 264.0
9.88000, 266.0
9.90000, 268.0
9.92000, 257.0
9.94000, 263.0
9.96000, 265.0
9.98000, 249.0
10.00000, 260.0
10.02000, 260.0
10.04000, 289.0
10.06000, 276.0
10.08000, 274.0
10.10000, 298.0
10.12000, 319.0
10.14000, 388.0
10.16000, 480.0
10.18000, 582.0
10.20000, 676.0
10.22000, 778.0
10.24000, 808.0
10.26000, 864.0
10.28000, 794.0
10.30000, 787.0
10.32000, 685.0
10.34000, 647.0
10.36000, 588.0
10.38000, 633.0
10.40000, 683.0
10.42000, 852.0
10.44000, 1102.0
10.46000, 1278.0
10.48000, 1536.0
10.50000, 1716.0
10.52000, 1733.0
10.54000, 1759.0
10.56000, 1573.0
10.58000, 1376.0
10.60000, 1085.0
10.62000, 812.0
10.64000, 602.0
10.66000, 469.0
10.68000, 353.0
10.70000, 272.0
10.72000, 240.0
10.74000, 219.0
10.76000, 201.0
10.78000, 192.0
10.80000, 192.0
10.82000, 206.0
10.84000, 200.0
10.86000, 195.0
10.88000, 188.0
10.90000, 177.0
10.92000, 208.0
10.94000, 176.0
10.96000, 174.0
10.98000, 176.0
11.00000, 174.0
11.02000, 174.0
11.04000, 157.0
11.06000, 187.0
11.08000, 184.0
11.10000, 176.0
11.12000, 165.0
11.14000, 180.0
11.16000, 178.0
11.18000, 180.0
11.20000, 168.0
11.22000, 162.0
11.24000, 157.0
11.26000, 176.0
11.28000, 161.0
11.30000, 165.0
11.32000, 173.0
11.34000, 175.0
11.36000, 186.0
11.38000, 144.0
11.40000, 172.0
11.42000, 171.0
11.44000, 164.0
11.46000, 165.0
11.48000, 163.0
11.50000, 178.0
11.52000, 173.0
11.54000, 197.0
11.56000, 191.0
11.58000, 220.0
11.60000, 252.0
11.62000, 271.0
11.64000, 296.0
11.66000, 357.0
11.68000, 365.0
11.70000, 359.0
11.72000, 389.0
11.74000, 342.0
11.76000, 300.0
11.78000, 295.0
11.80000, 269.0
11.82000, 226.0
11.84000, 204.0
11.86000, 179.0
11.88000, 164.0
11.90000, 137.0
11.92000, 144.0
11.94000, 126.0
11.96000, 136.0
11.98000, 125.0
12.00000, 119.0
12.02000, 114.0
12.04000, 116.0
12.06000, 124.0
12.08000, 103.0
12.10000, 117.0
12.12000, 103.0
12.14000, 104.0
12.16000, 120.0
12.18000, 101.0
12.20000, 108.0
12.22000, 109.0
12.24000, 113.0
12.26000, 108.0
12.28000, 107.0
12.30000, 110.0
12.32000, 102.0
12.34000, 107.0
12.36000, 108.0
12.38000, 109.0
12.40000, 97.0
12.42000, 108.0
12.44000, 98.0
12.46000, 109.0
12.48000, 94.0
12.50000, 97.0
12.52000, 111.0
12.54000, 97.0
12.56000, 105.0
12.58000, 97.0
12.60000, 87.0
12.62000, 90.0
12.64000, 88.0
12.66000, 83.0
12.68000, 98.0
12.70000, 96.0
12.72000, 88.0
12.74000, 92.0
12.76000, 89.0
12.78000, 91.0
12.80000, 102.0
12.82000, 86.0
12.84000, 96.0
12.86000, 92.0
12.88000, 81.0
12.90000, 77.0
12.92000, 89.0
12.94000, 84.0
12.96000, 76.0
12.98000, 89.0
13.00000, 80.0
13.02000, 63.0
13.04000, 76.0
13.06000, 72.0
13.08000, 87.0
13.10000, 78.0
13.12000, 80.0
13.14000, 68.0
13.16000, 68.0
13.18000, 69.0
13.20000, 73.0
13.22000, 66.0
13.24000, 60.0
13.26000, 71.0
13.28000, 66.0
13.30000, 66.0
13.32000, 63.0
13.34000, 64.0
13.36000, 59.0
13.38000, 56.0
13.40000, 64.0
13.42000, 63.0
13.44000, 59.0
13.46000, 62.0
13.48000, 60.0
13.50000, 66.0
13.52000, 51.0
13.54000, 48.0
13.56000, 52.0
13.58000, 52.0
13.60000, 51.0
13.62000, 52.0
13.64000, 57.0
13.66000, 45.0
13.68000, 57.0
13.70000, 46.0
13.72000, 44.0
13.74000, 36.0
13.76000, 45.0
13.78000, 42.0
13.80000, 49.0
13.82000, 42.0
13.84000, 43.0
13.86000, 54.0
13.88000, 39.0
13.90000, 39.0
13.92000, 45.0
13.94000, 45.0
13.96000, 50.0
13.98000, 32.0
14.00000, 38.0
14.02000, 39.0
14.04000, 38.0
14.06000, 39.0
14.08000, 30.0
14.10000, 35.0
14.12000, 39.0
14.14000, 37.0
14.16000, 37.0
14.18000, 36.0
14.20000, 32.0
14.22000, 30.0
14.24000, 29.0
14.26000, 31.0
14.28000, 30.0
14.30000, 27.0
14.32000, 30.0
14.34000, 27.0
14.36000, 27.0
14.38000, 25.0
14.40000, 26.0
14.42000, 28.0
14.44000, 25.0
14.46000, 26.0
14.48000, 19.0
14.50000, 25.0
14.52000, 27.0
14.54000, 28.0
14.56000, 21.0
14.58000, 20.0
14.60000, 18.0
14.62000, 14.0
14.64000, 18.0
14.66000, 15.0
14.68000, 24.0
14.70000, 19.0
14.72000, 16.0
14.74000, 18.0
14.76000, 20.0
14.78000, 20.0
14.80000, 14.0
14.82000, 14.0
14.84000, 14.0
14.86000, 12.0
14.88000, 15.0
14.90000, 14.0
14.92000, 16.0
14.94000, 17.0
14.96000, 10.0
14.98000, 9.0
15.00000, 10.0
15.02000, 9.0
15.04000, 6.0
15.06000, 6.0
15.08000, 6.0
15.10000, 6.0
15.12000, 5.0
15.14000, 5.0
15.16000, 4.0
15.18000, 7.0
15.20000, 5.0
15.22000, 8.0
15.24000, 3.0
15.26000, 5.0
15.28000, 5.0
15.30000, 5.0
15.32000, 4.0
15.34000, 4.0
15.36000, 6.0
15.38000, 7.0
15.40000, 3.0
15.42000, 7.0
15.44000, 6.0
15.46000, 7.0
15.48000, 6.0
15.50000, 5.0
15.52000, 6.0
15.54000, 7.0
15.56000, 7.0
15.58000, 9.0
15.60000, 5.0
15.62000, 4.0
15.64000, 5.0
15.66000, 4.0
15.68000, 5.0
15.70000, 3.0
15.72000, 3.0
15.74000, 2.0
15.76000, 2.0
15.78000, 4.0
15.80000, 5.0
15.82000, 2.0
15.84000, 7.0
15.86000, 2.0
15.88000, 6.0
15.90000, 2.0
15.92000, 3.0
15.94000, 3.0
15.96000, 2.0
15.98000, 2.0
16.00000, 5.0
16.02000, 2.0
16.04000, 5.0
16.06000, 4.0
16.08000, 3.0
16.10000, 6.0
16.12000, 3.0
16.14000, 5.0
16.16000, 5.0
16.18000, 6.0
16.20000, 3.0
16.22000, 5.0
16.24000, 2.0
16.26000, 3.0
16.28000, 4.0
16.30000, 2.0
16.32000, 4.0
16.34000, 4.0
16.36000, 2.0
16.38000, 4.0
16.40000, 4.0
16.42000, 1.0
16.44000, 3.0
16.46000, 2.0
16.48000, 3.0
16.50000, 4.0
16.52000, 4.0
16.54000, 5.0
16.56000, 5.0
16.58000, 3.0
16.60000, 2.0
16.62000, 9.0
16.64000, 3.0
16.66000, 2.0
16.68000, 2.0
16.70000, 4.0
16.72000, 2.0
16.74000, 2.0
16.76000, 1.0
16.78000, 2.0
16.80000, 4.0
16.82000, 4.0
16.84000, 5.0
16.86000, 4.0
16.88000, 3.0
16.90000, 1.0
16.92000, 2.0
16.94000, 5.0
16.96000, 3.0
16.98000, 3.0
17.00000, 3.0
17.02000, 7.0
17.04000, 3.0
17.06000, 3.0
17.08000, 5.0
17.10000, 2.0
17.12000, 1.0
17.14000, 1.0
17.16000, 2.0
17.18000, 1.0
17.20000, 2.0
17.22000, 2.0
17.24000, 1.0
17.26000, 2.0
17.28000, 4.0
17.30000, 2.0
17.32000, 2.0
17.34000, 2.0
17.36000, 4.0
17.38000, 1.0
17.40000, 3.0
17.42000, 2.0
17.44000, 2.0
17.46000, 2.0
17.48000, 3.0
17.50000, 1.0
17.52000, 2.0
17.54000, 2.0
17.56000, 3.0
17.58000, 4.0
17.60000, 1.0
17.62000, 3.0
17.64000, 1.0
17.66000, 6.0
17.68000, 3.0
17.70000, 4.0
17.72000, 4.0
17.74000, 1.0
17.76000, 2.0
17.78000, 5.0
17.80000, 1.0
17.82000, 1.0
17.84000, 3.0
17.86000, 4.0
17.88000, 1.0
17.90000, 2.0
17.92000, 2.0
17.94000, 3.0
17.96000, 1.0
17.98000, 2.0
18.00000, 2.0
18.02000, 1.0
18.04000, 1.0
18.06000, 1.0
18.08000, 3.0
18.10000, 3.0
18.12000, 2.0
18.14000, 1.0
18.16000, 4.0
18.18000, 2.0
18.20000, 1.0
18.22000, 2.0
18.24000, 2.0
18.26000, 3.0
18.28000, 1.0
18.30000, 1.0
18.32000, 4.0
18.34000, 2.0
18.36000, 4.0
18.38000, 2.0
18.40000, 2.0
18.42000, 7.0
18.44000, 3.0
18.46000, 3.0
18.48000, 5.0
18.50000, 3.0
18.52000, 4.0
18.54000, 4.0
18.56000, 4.0
18.58000, 3.0
18.60000, 5.0
18.62000, 4.0
18.64000, 2.0
18.66000, 5.0
18.68000, 1.0
18.70000, 0.0
18.72000, 3.0
18.74000, 2.0
18.76000, 1.0
18.78000, 2.0
18.80000, 1.0
18.82000, 2.0
18.84000, 2.0
18.86000, 0.0
18.88000, 0.0
18.90000, 1.0
18.92000, 1.0
18.94000, 1.0
18.96000, 2.0
18.98000, 2.0
19.00000, 1.0
19.02000, 0.0
19.04000, 1.0
19.06000, 0.0
19.08000, 1.0
19.10000, 2.0
19.12000, 0.0
19.14000, 0.0
19.16000, 1.0
19.18000, 1.0
19.20000, 1.0
19.22000, 1.0
19.24000, 3.0
19.26000, 1.0
19.28000, 1.0
19.30000, 1.0
19.32000, 3.0
19.34000, 2.0
19.36000, 2.0
19.38000, 2.0
19.40000, 2.0
19.42000, 1.0
19.44000, 1.0
19.46000, 1.0
19.48000, 1.0
19.50000, 3.0
19.52000, 2.0
19.54000, 1.0
19.56000, 3.0
19.58000, 3.0
19.60000, 2.0
19.62000, 1.0
19.64000, 1.0
19.66000, 4.0
19.68000, 1.0
19.70000, 1.0
19.72000, 3.0
19.74000, 2.0
19.76000, 5.0
19.78000, 2.0
19.80000, 2.0
19.82000, 3.0
19.84000, 3.0
19.86000, 4.0
19.88000, 2.0
19.90000, 4.0
19.92000, 2.0
19.94000, 0.0
19.96000, 1.0
19.98000, 1.0
20.00000, 1.0
20.02000, 1.0
20.04000, 1.0
20.06000, 2.0
20.08000, 1.0
20.10000, 1.0
20.12000, 0.0
20.14000, 1.0
20.16000, 1.0
20.18000, 1.0
20.20000, 0.0
20.22000, 0.0
20.24000, 0.0
20.26000, 0.0
20.27000, 1.0
#ENDOFDATA   :