File: data/Maehlum_2022-09-06_EDS-SEM-APREO/GaAs_10kV.emsa
#FORMAT      : EMSA/MAS Spectral Data File
#VERSION     : 1.0
#TITLE       : GaAs_10kV
#DATE        : 06-SEP-2022
#TIME        : 16:53
#OWNER       :
#NPOINTS     : 2048.0
#NCOLUMNS    : 1.0
#XUNITS      : keV
#YUNITS      : counts
#DATATYPE    : XY
#XPERCHAN    : 0.01
#OFFSET      : -0.2
#SIGNALTYPE  : EDS
#CHOFFSET    : 20.0
#LIVETIME    : 55.0
#REALTIME    : 157.212
#BEAMKV      : 10.0
#MAGCAM      : 2936.0
#XTILTSTGE   : 0.0
#AZIMANGLE   : 0.0
#ELEVANGLE   : 35.0
#XPOSITION mm: -15.6696
#YPOSITION mm: -6.9174
#ZPOSITION mm: 9.9088
##OXINSTPT   : 5
##OXINSTSTROB: 36.74
##OXINSTNDET : 1
##OXINSTELEMS: 25,50,8,12
##OXINSTLABEL: 25, 5.899, Mn
##OXINSTLABEL: 25, 6.490, Mn
##OXINSTLABEL: 25, 0.636, Mn
##OXINSTLABEL: 25, 0.556, Mn
##OXINSTLABEL: 50, 3.444, Sn
##OXINSTLABEL: 50, 3.666, Sn
##OXINSTLABEL: 50, 3.905, Sn
##OXINSTLABEL: 50, 3.272, Sn
##OXINSTLABEL: 50, 4.131, Sn
##OXINSTLABEL: 50, 4.377, Sn
##OXINSTLABEL: 50, 3.045, Sn
##OXINSTLABEL: 50, 0.397, Sn
##OXINSTLABEL: 8, 0.522, O
##OXINSTLABEL: 12, 1.254, Mg
#SPECTRUM    : Spectral Data Starts Here
-0.20000, 0.0
-0.18000, 0.0
-0.16000, 0.0
-0.14000, 0.0
-0.12000, 0.0
-0.10000, 0.0
-0.08000, 0.0
-0.06000, 2.0
-0.04000, 38.0
-0.02000, 460.0
0.00000, 2011.0
0.02000, 2856.0
0.04000, 1366.0
0.06000, 422.0
0.08000, 547.0
0.10000, 764.0
0.12000, 761.0
0.14000, 849.0
0.16000, 935.0
0.18000, 1017.0
0.20000, 1169.0
0.22000, 1590.0
0.24000, 2637.0
0.26000, 3973.0
0.28000, 3535.0
0.30000, 1954.0
0.32000, 1190.0
0.34000, 1331.0
0.36000, 1584.0
0.38000, 1862.0
0.40000, 2114.0
0.42000, 2401.0
0.44000, 2775.0
0.46000, 3140.0
0.48000, 3899.0
0.50000, 5048.0
0.52000, 5821.0
0.54000, 5061.0
0.56000, 3963.0
0.58000, 3697.0
0.60000, 3857.0
0.62000, 4038.0
0.64000, 4237.0
0.66000, 4430.0
0.68000, 4764.0
0.70000, 5027.0
0.72000, 5145.0
0.74000, 5195.0
0.76000, 5473.0
0.78000, 5580.0
0.80000, 5658.0
0.82000, 5769.0
0.84000, 5927.0
0.86000, 6294.0
0.88000, 6458.0
0.90000, 7160.0
0.92000, 9267.0
0.94000, 12891.0
0.96000, 15921.0
0.98000, 15275.0
1.00000, 12977.0
1.02000, 12254.0
1.04000, 20973.0
1.06000, 52768.0
1.08000, 111458.0
1.10000, 160440.0
1.12000, 152999.0
1.14000, 98183.0
1.16000, 45686.0
1.18000, 18917.0
1.20000, 10626.0
1.22000, 13769.0
1.24000, 31165.0
1.26000, 65391.0
1.28000, 98526.0
1.30000, 103734.0
1.32000, 79293.0
1.34000, 46097.0
1.36000, 21707.0
1.38000, 9698.0
1.40000, 5665.0
1.42000, 4099.0
1.44000, 3231.0
1.46000, 2885.0
1.48000, 2766.0
1.50000, 2769.0
1.52000, 2802.0
1.54000, 2765.0
1.56000, 2836.0
1.58000, 2698.0
1.60000, 2658.0
1.62000, 2637.0
1.64000, 2714.0
1.66000, 2649.0
1.68000, 2753.0
1.70000, 2838.0
1.72000, 3011.0
1.74000, 3046.0
1.76000, 3040.0
1.78000, 3024.0
1.80000, 2964.0
1.82000, 2905.0
1.84000, 2877.0
1.86000, 2686.0
1.88000, 2680.0
1.90000, 2652.0
1.92000, 2631.0
1.94000, 2697.0
1.96000, 2661.0
1.98000, 2817.0
2.00000, 2695.0
2.02000, 2669.0
2.04000, 2667.0
2.06000, 2792.0
2.08000, 2837.0
2.10000, 2819.0
2.12000, 2876.0
2.14000, 2895.0
2.16000, 3098.0
2.18000, 3427.0
2.20000, 3728.0
2.22000, 3837.0
2.24000, 3548.0
2.26000, 3411.0
2.28000, 3123.0
2.30000, 2919.0
2.32000, 2915.0
2.34000, 2964.0
2.36000, 3407.0
2.38000, 3655.0
2.40000, 4058.0
2.42000, 3839.0
2.44000, 3497.0
2.46000, 3126.0
2.48000, 2777.0
2.50000, 2619.0
2.52000, 2661.0
2.54000, 2731.0
2.56000, 2804.0
2.58000, 2932.0
2.60000, 2723.0
2.62000, 2711.0
2.64000, 2529.0
2.66000, 2468.0
2.68000, 2387.0
2.70000, 2280.0
2.72000, 2316.0
2.74000, 2240.0
2.76000, 2235.0
2.78000, 2173.0
2.80000, 2201.0
2.82000, 2142.0
2.84000, 2136.0
2.86000, 2131.0
2.88000, 2067.0
2.90000, 2147.0
2.92000, 2148.0
2.94000, 2133.0
2.96000, 2115.0
2.98000, 2102.0
3.00000, 2099.0
3.02000, 2021.0
3.04000, 2064.0
3.06000, 1982.0
3.08000, 1994.0
3.10000, 1998.0
3.12000, 2043.0
3.14000, 2009.0
3.16000, 1989.0
3.18000, 1942.0
3.20000, 1884.0
3.22000, 1947.0
3.24000, 1893.0
3.26000, 1891.0
3.28000, 1904.0
3.30000, 1907.0
3.32000, 1860.0
3.34000, 1838.0
3.36000, 1816.0
3.38000, 1772.0
3.40000, 1788.0
3.42000, 1824.0
3.44000, 1773.0
3.46000, 1758.0
3.48000, 1744.0
3.50000, 1741.0
3.52000, 1735.0
3.54000, 1706.0
3.56000, 1733.0
3.58000, 1679.0
3.60000, 1642.0
3.62000, 1680.0
3.64000, 1660.0
3.66000, 1715.0
3.68000, 1613.0
3.70000, 1561.0
3.72000, 1640.0
3.74000, 1625.0
3.76000, 1585.0
3.78000, 1556.0
3.80000, 1532.0
3.82000, 1538.0
3.84000, 1520.0
3.86000, 1506.0
3.88000, 1509.0
3.90000, 1506.0
3.92000, 1493.0
3.94000, 1475.0
3.96000, 1486.0
3.98000, 1449.0
4.00000, 1508.0
4.02000, 1373.0
4.04000, 1416.0
4.06000, 1366.0
4.08000, 1446.0
4.10000, 1407.0
4.12000, 1418.0
4.14000, 1394.0
4.16000, 1396.0
4.18000, 1375.0
4.20000, 1416.0
4.22000, 1337.0
4.24000, 1338.0
4.26000, 1267.0
4.28000, 1310.0
4.30000, 1265.0
4.32000, 1309.0
4.34000, 1299.0
4.36000, 1295.0
4.38000, 1287.0
4.40000, 1278.0
4.42000, 1218.0
4.44000, 1210.0
4.46000, 1228.0
4.48000, 1254.0
4.50000, 1226.0
4.52000, 1183.0
4.54000, 1222.0
4.56000, 1210.0
4.58000, 1165.0
4.60000, 1190.0
4.62000, 1080.0
4.64000, 1155.0
4.66000, 1137.0
4.68000, 1091.0
4.70000, 1100.0
4.72000, 1112.0
4.74000, 1146.0
4.76000, 1141.0
4.78000, 1064.0
4.80000, 1084.0
4.82000, 1123.0
4.84000, 1087.0
4.86000, 1049.0
4.88000, 1026.0
4.90000, 1066.0
4.92000, 1049.0
4.94000, 1016.0
4.96000, 1071.0
4.98000, 985.0
5.00000, 993.0
5.02000, 1009.0
5.04000, 975.0
5.06000, 1000.0
5.08000, 993.0
5.10000, 974.0
5.12000, 971.0
5.14000, 928.0
5.16000, 942.0
5.18000, 969.0
5.20000, 924.0
5.22000, 914.0
5.24000, 943.0
5.26000, 912.0
5.28000, 907.0
5.30000, 917.0
5.32000, 873.0
5.34000, 893.0
5.36000, 881.0
5.38000, 878.0
5.40000, 883.0
5.42000, 838.0
5.44000, 866.0
5.46000, 858.0
5.48000, 827.0
5.50000, 881.0
5.52000, 817.0
5.54000, 802.0
5.56000, 834.0
5.58000, 821.0
5.60000, 810.0
5.62000, 806.0
5.64000, 792.0
5.66000, 773.0
5.68000, 759.0
5.70000, 830.0
5.72000, 775.0
5.74000, 750.0
5.76000, 813.0
5.78000, 738.0
5.80000, 741.0
5.82000, 712.0
5.84000, 741.0
5.86000, 726.0
5.88000, 721.0
5.90000, 676.0
5.92000, 708.0
5.94000, 715.0
5.96000, 702.0
5.98000, 705.0
6.00000, 665.0
6.02000, 719.0
6.04000, 692.0
6.06000, 676.0
6.08000, 657.0
6.10000, 704.0
6.12000, 652.0
6.14000, 640.0
6.16000, 635.0
6.18000, 637.0
6.20000, 635.0
6.22000, 618.0
6.24000, 634.0
6.26000, 640.0
6.28000, 612.0
6.30000, 627.0
6.32000, 644.0
6.34000, 601.0
6.36000, 604.0
6.38000, 579.0
6.40000, 573.0
6.42000, 591.0
6.44000, 602.0
6.46000, 566.0
6.48000, 629.0
6.50000, 551.0
6.52000, 557.0
6.54000, 563.0
6.56000, 529.0
6.58000, 540.0
6.60000, 536.0
6.62000, 563.0
6.64000, 553.0
6.66000, 545.0
6.68000, 550.0
6.70000, 539.0
6.72000, 549.0
6.74000, 524.0
6.76000, 519.0
6.78000, 504.0
6.80000, 511.0
6.82000, 505.0
6.84000, 488.0
6.86000, 497.0
6.88000, 511.0
6.90000, 475.0
6.92000, 466.0
6.94000, 462.0
6.96000, 474.0
6.98000, 480.0
7.00000, 478.0
7.02000, 445.0
7.04000, 434.0
7.06000, 443.0
7.08000, 425.0
7.10000, 431.0
7.12000, 469.0
7.14000, 417.0
7.16000, 463.0
7.18000, 436.0
7.20000, 420.0
7.22000, 403.0
7.24000, 411.0
7.26000, 399.0
7.28000, 404.0
7.30000, 419.0
7.32000, 415.0
7.34000, 411.0
7.36000, 381.0
7.38000, 394.0
7.40000, 392.0
7.42000, 402.0
7.44000, 352.0
7.46000, 375.0
7.48000, 338.0
7.50000, 370.0
7.52000, 376.0
7.54000, 348.0
7.56000, 358.0
7.58000, 352.0
7.60000, 358.0
7.62000, 352.0
7.64000, 355.0
7.66000, 329.0
7.68000, 344.0
7.70000, 358.0
7.72000, 343.0
7.74000, 327.0
7.76000, 338.0
7.78000, 340.0
7.80000, 302.0
7.82000, 325.0
7.84000, 302.0
7.86000, 319.0
7.88000, 317.0
7.90000, 303.0
7.92000, 294.0
7.94000, 302.0
7.96000, 291.0
7.98000, 306.0
8.00000, 281.0
8.02000, 275.0
8.04000, 293.0
8.06000, 288.0
8.08000, 266.0
8.10000, 279.0
8.12000, 277.0
8.14000, 260.0
8.16000, 259.0
8.18000, 255.0
8.20000, 270.0
8.22000, 273.0
8.24000, 254.0
8.26000, 236.0
8.28000, 229.0
8.30000, 251.0
8.32000, 225.0
8.34000, 249.0
8.36000, 236.0
8.38000, 218.0
8.40000, 228.0
8.42000, 240.0
8.44000, 231.0
8.46000, 215.0
8.48000, 214.0
8.50000, 196.0
8.52000, 217.0
8.54000, 177.0
8.56000, 203.0
8.58000, 210.0
8.60000, 210.0
8.62000, 189.0
8.64000, 193.0
8.66000, 192.0
8.68000, 190.0
8.70000, 180.0
8.72000, 177.0
8.74000, 170.0
8.76000, 182.0
8.78000, 160.0
8.80000, 176.0
8.82000, 177.0
8.84000, 168.0
8.86000, 170.0
8.88000, 170.0
8.90000, 160.0
8.92000, 148.0
8.94000, 157.0
8.96000, 160.0
8.98000, 148.0
9.00000, 155.0
9.02000, 144.0
9.04000, 152.0
9.06000, 134.0
9.08000, 133.0
9.10000, 132.0
9.12000, 125.0
9.14000, 127.0
9.16000, 122.0
9.18000, 127.0
9.20000, 115.0
9.22000, 124.0
9.24000, 101.0
9.26000, 114.0
9.28000, 121.0
9.30000, 98.0
9.32000, 103.0
9.34000, 91.0
9.36000, 96.0
9.38000, 103.0
9.40000, 95.0
9.42000, 79.0
9.44000, 102.0
9.46000, 90.0
9.48000, 88.0
9.50000, 80.0
9.52000, 84.0
9.54000, 76.0
9.56000, 71.0
9.58000, 71.0
9.60000, 75.0
9.62000, 72.0
9.64000, 64.0
9.66000, 70.0
9.68000, 59.0
9.70000, 50.0
9.72000, 57.0
9.74000, 47.0
9.76000, 55.0
9.78000, 52.0
9.80000, 43.0
9.82000, 36.0
9.84000, 39.0
9.86000, 42.0
9.88000, 37.0
9.90000, 36.0
9.92000, 30.0
9.94000, 31.0
9.96000, 15.0
9.98000, 26.0
10.00000, 18.0
10.02000, 22.0
10.04000, 15.0
10.06000, 16.0
10.08000, 15.0
10.10000, 12.0
10.12000, 14.0
10.14000, 11.0
10.16000, 10.0
10.18000, 15.0
10.20000, 14.0
10.22000, 8.0
10.24000, 14.0
10.26000, 11.0
10.28000, 9.0
10.30000, 5.0
10.32000, 11.0
10.34000, 11.0
10.36000, 8.0
10.38000, 11.0
10.40000, 7.0
10.42000, 10.0
10.44000, 8.0
10.46000, 10.0
10.48000, 10.0
10.50000, 11.0
10.52000, 10.0
10.54000, 8.0
10.56000, 7.0
10.58000, 9.0
10.60000, 10.0
10.62000, 13.0
10.64000, 7.0
10.66000, 10.0
10.68000, 7.0
10.70000, 8.0
10.72000, 5.0
10.74000, 9.0
10.76000, 5.0
10.78000, 8.0
10.80000, 7.0
10.82000, 4.0
10.84000, 5.0
10.86000, 7.0
10.88000, 4.0
10.90000, 9.0
10.92000, 5.0
10.94000, 6.0
10.96000, 9.0
10.98000, 7.0
11.00000, 7.0
11.02000, 8.0
11.04000, 6.0
11.06000, 6.0
11.08000, 4.0
11.10000, 5.0
11.12000, 2.0
11.14000, 4.0
11.16000, 4.0
11.18000, 4.0
11.20000, 6.0
11.22000, 4.0
11.24000, 4.0
11.26000, 8.0
11.28000, 5.0
11.30000, 5.0
11.32000, 3.0
11.34000, 3.0
11.36000, 4.0
11.38000, 5.0
11.40000, 3.0
11.42000, 3.0
11.44000, 6.0
11.46000, 2.0
11.48000, 3.0
11.50000, 4.0
11.52000, 3.0
11.54000, 5.0
11.56000, 2.0
11.58000, 2.0
11.60000, 3.0
11.62000, 3.0
11.64000, 2.0
11.66000, 2.0
11.68000, 2.0
11.70000, 3.0
11.72000, 3.0
11.74000, 3.0
11.76000, 3.0
11.78000, 4.0
11.80000, 3.0
11.82000, 2.0
11.84000, 4.0
11.86000, 6.0
11.88000, 4.0
11.90000, 3.0
11.92000, 3.0
11.94000, 3.0
11.96000, 4.0
11.98000, 3.0
12.00000, 2.0
12.02000, 2.0
12.04000, 1.0
12.06000, 3.0
12.08000, 2.0
12.10000, 1.0
12.12000, 3.0
12.14000, 1.0
12.16000, 2.0
12.18000, 1.0
12.20000, 4.0
12.22000, 1.0
12.24000, 2.0
12.26000, 4.0
12.28000, 2.0
12.30000, 3.0
12.32000, 2.0
12.34000, 4.0
12.36000, 3.0
12.38000, 2.0
12.40000, 1.0
12.42000, 4.0
12.44000, 3.0
12.46000, 1.0
12.48000, 2.0
12.50000, 1.0
12.52000, 1.0
12.54000, 2.0
12.56000, 3.0
12.58000, 2.0
12.60000, 3.0
12.62000, 2.0
12.64000, 3.0
12.66000, 2.0
12.68000, 2.0
12.70000, 2.0
12.72000, 3.0
12.74000, 0.0
12.76000, 3.0
12.78000, 2.0
12.80000, 3.0
12.82000, 1.0
12.84000, 3.0
12.86000, 3.0
12.88000, 2.0
12.90000, 3.0
12.92000, 0.0
12.94000, 2.0
12.96000, 1.0
12.98000, 3.0
13.00000, 1.0
13.02000, 1.0
13.04000, 1.0
13.06000, 3.0
13.08000, 1.0
13.10000, 2.0
13.12000, 2.0
13.14000, 1.0
13.16000, 0.0
13.18000, 1.0
13.20000, 2.0
13.22000, 1.0
13.24000, 0.0
13.26000, 1.0
13.28000, 0.0
13.30000, 1.0
13.32000, 1.0
13.34000, 0.0
13.36000, 2.0
13.38000, 4.0
13.40000, 1.0
13.42000, 3.0
13.44000, 2.0
13.46000, 1.0
13.48000, 1.0
13.50000, 0.0
13.52000, 1.0
13.54000, 0.0
13.56000, 2.0
13.58000, 0.0
13.60000, 1.0
13.62000, 3.0
13.64000, 2.0
13.66000, 1.0
13.68000, 0.0
13.70000, 0.0
13.72000, 2.0
13.74000, 1.0
13.76000, 1.0
13.78000, 2.0
13.80000, 0.0
13.82000, 3.0
13.84000, 0.0
13.86000, 0.0
13.88000, 0.0
13.90000, 1.0
13.92000, 2.0
13.94000, 1.0
13.96000, 0.0
13.98000, 0.0
14.00000, 2.0
14.02000, 1.0
14.04000, 2.0
14.06000, 1.0
14.08000, 1.0
14.10000, 1.0
14.12000, 1.0
14.14000, 0.0
14.16000, 0.0
14.18000, 1.0
14.20000, 1.0
14.22000, 0.0
14.24000, 1.0
14.26000, 0.0
14.28000, 1.0
14.30000, 1.0
14.32000, 0.0
14.34000, 0.0
14.36000, 1.0
14.38000, 1.0
14.40000, 1.0
14.42000, 1.0
14.44000, 1.0
14.46000, 2.0
14.48000, 1.0
14.50000, 1.0
14.52000, 0.0
14.54000, 1.0
14.56000, 1.0
14.58000, 0.0
14.60000, 0.0
14.62000, 0.0
14.64000, 0.0
14.66000, 1.0
14.68000, 0.0
14.70000, 1.0
14.72000, 0.0
14.74000, 0.0
14.76000, 1.0
14.78000, 0.0
14.80000, 0.0
14.82000, 1.0
14.84000, 0.0
14.86000, 1.0
14.88000, 0.0
14.90000, 0.0
14.92000, 0.0
14.94000, 2.0
14.96000, 1.0
14.98000, 0.0
15.00000, 1.0
15.02000, 0.0
15.04000, 0.0
15.06000, 0.0
15.08000, 0.0
15.10000, 0.0
15.12000, 0.0
15.14000, 1.0
15.16000, 0.0
15.18000, 0.0
15.20000, 1.0
15.22000, 0.0
15.24000, 0.0
15.26000, 1.0
15.28000, 0.0
15.30000, 0.0
15.32000, 0.0
15.34000, 0.0
15.36000, 1.0
15.38000, 1.0
15.40000, 1.0
15.42000, 0.0
15.44000, 1.0
15.46000, 0.0
15.48000, 0.0
15.50000, 1.0
15.52000, 0.0
15.54000, 0.0
15.56000, 1.0
15.58000, 1.0
15.60000, 0.0
15.62000, 1.0
15.64000, 0.0
15.66000, 0.0
15.68000, 0.0
15.70000, 2.0
15.72000, 0.0
15.74000, 0.0
15.76000, 0.0
15.78000, 0.0
15.80000, 0.0
15.82000, 1.0
15.84000, 0.0
15.86000, 1.0
15.88000, 0.0
15.90000, 1.0
15.92000, 0.0
15.94000, 0.0
15.96000, 0.0
15.98000, 0.0
16.00000, 1.0
16.02000, 0.0
16.04000, 1.0
16.06000, 0.0
16.08000, 0.0
16.10000, 1.0
16.12000, 0.0
16.14000, 1.0
16.16000, 0.0
16.18000, 1.0
16.20000, 0.0
16.22000, 0.0
16.24000, 0.0
16.26000, 0.0
16.28000, 0.0
16.30000, 0.0
16.32000, 1.0
16.34000, 1.0
16.36000, 0.0
16.38000, 0.0
16.40000, 0.0
16.42000, 0.0
16.44000, 0.0
16.46000, 0.0
16.48000, 0.0
16.50000, 0.0
16.52000, 0.0
16.54000, 0.0
16.56000, 1.0
16.58000, 0.0
16.60000, 0.0
16.62000, 0.0
16.64000, 0.0
16.66000, 0.0
16.68000, 1.0
16.70000, 0.0
16.72000, 0.0
16.74000, 0.0
16.76000, 0.0
16.78000, 0.0
16.80000, 0.0
16.82000, 0.0
16.84000, 0.0
16.86000, 0.0
16.88000, 0.0
16.90000, 0.0
16.92000, 0.0
16.94000, 0.0
16.96000, 0.0
16.98000, 0.0
17.00000, 0.0
17.02000, 0.0
17.04000, 0.0
17.06000, 0.0
17.08000, 0.0
17.10000, 1.0
17.12000, 0.0
17.14000, 0.0
17.16000, 1.0
17.18000, 0.0
17.20000, 0.0
17.22000, 0.0
17.24000, 0.0
17.26000, 1.0
17.28000, 0.0
17.30000, 0.0
17.32000, 0.0
17.34000, 0.0
17.36000, 0.0
17.38000, 0.0
17.40000, 0.0
17.42000, 0.0
17.44000, 0.0
17.46000, 0.0
17.48000, 0.0
17.50000, 0.0
17.52000, 0.0
17.54000, 0.0
17.56000, 0.0
17.58000, 0.0
17.60000, 0.0
17.62000, 0.0
17.64000, 0.0
17.66000, 0.0
17.68000, 0.0
17.70000, 0.0
17.72000, 0.0
17.74000, 0.0
17.76000, 1.0
17.78000, 0.0
17.80000, 0.0
17.82000, 0.0
17.84000, 0.0
17.86000, 0.0
17.88000, 0.0
17.90000, 0.0
17.92000, 0.0
17.94000, 0.0
17.96000, 0.0
17.98000, 0.0
18.00000, 0.0
18.02000, 0.0
18.04000, 0.0
18.06000, 0.0
18.08000, 0.0
18.10000, 0.0
18.12000, 0.0
18.14000, 0.0
18.16000, 0.0
18.18000, 1.0
18.20000, 0.0
18.22000, 0.0
18.24000, 0.0
18.26000, 0.0
18.28000, 0.0
18.30000, 0.0
18.32000, 0.0
18.34000, 0.0
18.36000, 0.0
18.38000, 0.0
18.40000, 0.0
18.42000, 0.0
18.44000, 1.0
18.46000, 0.0
18.48000, 0.0
18.50000, 0.0
18.52000, 0.0
18.54000, 0.0
18.56000, 0.0
18.58000, 0.0
18.60000, 0.0
18.62000, 0.0
18.64000, 0.0
18.66000, 0.0
18.68000, 0.0
18.70000, 0.0
18.72000, 0.0
18.74000, 0.0
18.76000, 0.0
18.78000, 0.0
18.80000, 0.0
18.82000, 0.0
18.84000, 0.0
18.86000, 0.0
18.88000, 0.0
18.90000, 0.0
18.92000, 0.0
18.94000, 0.0
18.96000, 0.0
18.98000, 0.0
19.00000, 0.0
19.02000, 0.0
19.04000, 0.0
19.06000, 0.0
19.08000, 0.0
19.10000, 0.0
19.12000, 0.0
19.14000, 0.0
19.16000, 0.0
19.18000, 0.0
19.20000, 0.0
19.22000, 0.0
19.24000, 0.0
19.26000, 0.0
19.28000, 0.0
19.30000, 0.0
19.32000, 0.0
19.34000, 0.0
19.36000, 0.0
19.38000, 0.0
19.40000, 0.0
19.42000, 0.0
19.44000, 0.0
19.46000, 0.0
19.48000, 0.0
19.50000, 0.0
19.52000, 0.0
19.54000, 0.0
19.56000, 0.0
19.58000, 0.0
19.60000, 0.0
19.62000, 0.0
19.64000, 0.0
19.66000, 0.0
19.68000, 0.0
19.70000, 0.0
19.72000, 0.0
19.74000, 0.0
19.76000, 0.0
19.78000, 0.0
19.80000, 0.0
19.82000, 0.0
19.84000, 0.0
19.86000, 0.0
19.88000, 0.0
19.90000, 0.0
19.92000, 0.0
19.94000, 0.0
19.96000, 0.0
19.98000, 0.0
20.00000, 0.0
20.02000, 0.0
20.04000, 0.0
20.06000, 0.0
20.08000, 0.0
20.10000, 0.0
20.12000, 0.0
20.14000, 0.0
20.16000, 0.0
20.18000, 0.0
20.20000, 0.0
20.22000, 0.0
20.24000, 0.0
20.26000, 0.0
20.27000, 0.0
#ENDOFDATA   :